Folder: NIST-NREL-Interlaboratory-Figures

Note: README.md
# NIST-NREL-Interlaboratory-Figures

This repository contains code and notebooks supporting the figures in the following publication:

## An Inter-Laboratory Comparative High Throughput Experimental Study of Zn-Sn-Ti-O Thin Films

J. R. Hattrick-Simpers<sup>1</sup>, A. Zakutayev<sup>2</sup>, S. C. Barron<sup>1</sup>, Z. T. Trautt<sup>1</sup>, N. Nguyen<sup>1</sup>, K. Choudhary<sup>1</sup>, B. DeCost<sup>1</sup>, C. Phillips<sup>2</sup>, A. G. Kusne<sup>1</sup>, F. Yi<sup>1</sup>, A. Mehta<sup>3</sup>, I. Takeuchi<sup>4</sup>, J. D.Perkins<sup>2</sup>, M. L. Green<sup>1</sup>

1. National Institute of Standards and Technology (NIST), Gaithersburg, MD

1. National Renewable Energy Laboratory (NREL), Golden, CO

1. SLAC National Accelerator Laboratory, Menlo Park, CA

1. University of Maryland, College Park, MD

Contact: [htems@nist.gov](mailto:htems@nist.gov)


## Warning

The contents of this repository may stop functioning if the service [https://hte.registry.nist.gov/](https://hte.registry.nist.gov/) is updated. Furthermore, the contents of this repository may be updated in the future to maintain functionality with a future version of [https://hte.registry.nist.gov/](https://hte.registry.nist.gov/). 

## Disclaimer

This repository serves as a platform for open community collaboration to enable and encourage greater sharing of and interoperability between research data from around the world. Except where otherwise noted, the content and software within this repository should be considered a work in progress, may contain input from non-governmental contributors, and thus should not be construed to represent the position nor have the endorsement the United States government.

This software was developed (possibly in part) by employees of the National Institute of Standards and Technology (NIST), an agency of the Federal Government and is being made available as a public service. Pursuant to title 17 United States Code Section 105, works of NIST employees are not subject to copyright protection in the United States.  This software may be subject to foreign copyright. Permission in the United States and in foreign countries, to the extent that NIST may hold copyright, to use, copy, modify, create derivative works, and distribute this software and its documentation without fee is hereby granted on a non-exclusive basis, provided that this notice and disclaimer of warranty appears in all copies. 

THE SOFTWARE IS PROVIDED 'AS IS' WITHOUT ANY WARRANTY OF ANY KIND, EITHER EXPRESSED, IMPLIED, OR STATUTORY, INCLUDING, BUT NOT LIMITED TO, ANY WARRANTY THAT THE SOFTWARE WILL CONFORM TO SPECIFICATIONS, ANY IMPLIED WARRANTIES OF MERCHANTABILITY, FITNESS FOR A PARTICULAR PURPOSE, AND FREEDOM FROM INFRINGEMENT, AND ANY WARRANTY THAT THE DOCUMENTATION WILL CONFORM TO THE SOFTWARE, OR ANY WARRANTY THAT THE SOFTWARE WILL BE ERROR FREE.  IN NO EVENT SHALL NIST BE LIABLE FOR ANY DAMAGES, INCLUDING, BUT NOT LIMITED TO, DIRECT, INDIRECT, SPECIAL OR CONSEQUENTIAL DAMA

File: xrd-peaks-NIST.csv
id,2015.1 (NREL),2015.1 (NIST)
1,32.8,32.7
2,32.9,32.8
3,32.8,32.8
4,32.9,32.8
5,33,32.8
6,36.5,36.4
7,36.3,36.2
8,0,0
9,32.8,32.7
10,32.8,32.7
11,32.9,32.8
12,32.9,32.8
13,33,32.9
14,33,32.9
15,36.6,36.5
16,36.5,36.4
17,36.3,36.2
18,0,36.1
19,33,32.6
20,32.8,32.7
21,32.8,32.7
22,32.9,32.7
23,32.9,32.8
24,33,32.8
25,32.9,32.8
26,36.9,36.8
27,36.6,36.7
28,36.5,36.5
29,36.4,36.3
30,36.2,36.1
31,36.2,36.1
32,33.1,32.6
33,32.9,32.7
34,32.8,32.7
35,32.8,32.7
36,32.8,32.7
37,32.8,32.7
38,0,32.7
39,36.9,36.8
40,36.8,36.7
41,36.6,36.5
42,36.5,36.4
43,36.4,36.2
44,36.1,36.2
45,36.1,36.1
46,36,36
47,36,35.9
48,0,0
49,32.8,32.6
50,33,32.8
51,32.9,32.7
52,37,36.9
53,37,36.9
54,36.9,36.8
55,36.6,36.6
56,36.5,36.4
57,36.3,36.3
58,36.3,36.2
59,36.2,36.1
60,36.3,36.1
61,36.1,36
62,36.1,36
63,36.1,36
64,36.1,36
65,36,36
66,0,36
67,37.1,37
68,37,36.9
69,36.9,36.9
70,36.8,36.7
71,36.6,36.6
72,0,0
73,0,0
74,0,0
75,0,36
76,36.2,36.1
77,36.1,36.1
78,36.1,36.1
79,36.1,36.1
80,36.1,36.1
81,0,36.1
82,37.1,37
83,37,37
84,36.9,36.9
85,36.9,36.8
86,36.9,36.7
87,0,0
88,0,0
89,0,0
90,0,0
91,0,0
92,0,0
93,36.3,36.1
94,36.3,36.1
95,36.3,36.2
96,0,36.2
97,37.1,37.1
98,37.2,37
99,37.1,37
100,37,36.9
101,0,0
102,0,0
103,0,0
104,0,0
105,0,0
106,0,0
107,0,0
108,0,0
109,36.8,36.5
110,36.7,36.5
111,0,36.5
112,37.3,37.2
113,37.2,37.2
114,37.3,37.1
115,37.3,37.2
116,0,0
117,34.5,34.4
118,34.5,34.4
119,34.4,34.3
120,34.4,34.3
121,34.4,34.3
122,37.3,37.1
123,37.1,37.1
124,37.1,37
125,37.1,37
126,0,37
127,37.3,37.2
128,37.5,37.3
129,37.6,37.4
130,37.6,37.5
131,34.5,34.3
132,34.5,34.3
133,34.4,34.2
134,34.3,34.2
135,34.3,34.2
136,34.2,34.2
137,37.3,37.2
138,37.3,37.2
139,37.3,37.2
140,37.5,37.4
141,37.6,37.5
142,37.8,37.6
143,37.6,37.6
144,37.6,37.5
145,34.5,34.3
146,34.3,34.2
147,34.3,34.2
148,34.3,34.2
149,37.6,37.6
150,37.6,37.5
151,0,37.5
152,0,0
153,37.8,37.6
154,37.7,37.7
155,37.8,37.7
156,37.8,37.7
157,37.8,37.7
158,37.8,37.7
159,37.9,37.8
160,37.9,37.8
161,37.9,37.8
162,38,37.8
163,37.9,37.8
164,38.1,37.9
165,38,37.9
166,38,37.9
167,38.1,37.9
168,38,38
169,38.1,37.9
170,38.1,38
171,38.1,37.9
172,37.9,38
173,38.2,38.1
174,38.2,38.1
175,38.2,38.1
176,38.2,38.1
177,38.2,38.1

File: xrd-peaks-NREL.csv
id,2016.1 (NREL),2016.1 (NIST),2016.2 (NREL),2016.2 (NIST),2016.3 (NREL),2016.3 (NIST)
1,34.2,34.1,33.3,0,0,0
2,34.3,34,33.3,0,0,0
3,34.2,34.1,33.2,0,0,0
4,34.2,34,33.1,33,0,0
5,34.1,34,33,32.9,0,0
6,34.2,34,32.9,32.8,0,0
7,34.1,34,32.9,32.7,0,0
8,34.1,34,33,32.7,0,0
9,34.1,34,0,0,0,0
10,34.2,34,0,0,34.3,34.2
11,34,33.9,0,0,34.1,34.1
12,34.2,34.1,33.4,33.3,0,0
13,34.2,34,33.4,33.3,0,0
14,34.2,34,33.3,33.1,0,0
15,34.2,33.9,33.1,33,0,0
16,34.1,34,33.1,32.9,0,0
17,34.1,34,33,32.7,0,0
18,34.1,33.9,33,32.6,0,0
19,34.1,33.9,33.1,32.9,0,0
20,34.1,33.9,0,0,0,0
21,34.2,33.9,0,0,34.2,34
22,34,33.9,0,0,34.2,34
23,34.1,34.1,33.5,33.3,0,34.1
24,34.2,34,33.4,33.2,0,0
25,34.2,34,33.3,33.1,0,0
26,34.1,33.9,33.1,32.9,0,0
27,34.2,33.9,33.1,32.7,0,0
28,34.2,33.9,33,32.6,0,0
29,34.2,33.9,32.9,32.5,0,0
30,34.1,34,32.9,32.7,0,0
31,34.2,33.9,0,0,0,0
32,34,33.9,0,0,34.2,34.1
33,34,34,0,0,34.3,34.1
34,34.3,34.1,33.5,33.2,0,0
35,34.3,34.1,33.4,33.1,0,0
36,34.3,34,33.3,32.9,0,0
37,34.2,33.9,33.2,32.8,0,0
38,34.2,33.9,33.1,32.7,0,0
39,34.1,33.9,33,32.6,0,0
40,34.1,34,33,32.6,0,0
41,34.2,34,0,0,0,0
42,34,34,0,0,0,0
43,34.1,33.9,0,0,0,0
44,34,34,0,0,0,0